*TYPE		=  Raw
*CLASS		=  ASCII CLASS
*SAMPLE		=  A59
*COMMENT	=   
*FNAME		=  A59_omega_ω.asc
*DATE		=  13-Jun-19 16:20

*GROUP_COUNT	=  1
*GONIO		=  SmartLab(In-plane), 0.000000
*ATTACHMENT	=  χφZクレードル
*ASC		=  0, 0, 0.000000, 0.000000
*I_MONOCHRO	=  Ge(220)x2, 0.000000
*FILTER		=  None
*C_MONOCHRO	=  No_unit, 0.000000
*SLIT_NAME	=  0, 入射スリット
*SLIT_NAME	=  1, 受光スリット1
*SLIT_NAME	=  2, 受光スリット2
*COUNTER	=  HyPix 3000(H), 0
*POS_FORMAT	=  0
*SCAN_AXIS	=  Omega
*MEAS_MODE	=  Continuous Scanning
*TARGET		=  29
*XRAY_CHAR	=  K-ALPHA1
*WAVE_LENGTH1	=  1.54059
*WAVE_LENGTH2	=  1.54441
*THICKNESS	=  0, 0.000000
*MU		=  0, 0.000000
*SCAN_MODE	=  Omega
*SPEED_DIM	=  sec./step
*XUNIT		=  deg.
*YUNIT		=  counts
*SCALE_MODE	=  1
*REP_COUNT	=  0
*SE_COUNT	=  0
*STD_MATERIAL	=  Unknown, Unknown, 0.000000, 0.000000, 0.000000, 0.000000, 0.000000, 0.000000
*LATT_CONS	=  0, Unknown, Unknown, 0.000000, 0.000000, 0.000000, 0.000000, 0.000000, 0.000000
*SEC_COUNT	=  1
*TSPEC_SIZE	=  0
*EXTRA_SIZE	=  0
*MEMO		=   

*BEGIN
*GROUP		=  0
*START		=  28.1179
*STOP		=  38.1179
*STEP		=  0.01
*OFFSET		=  66.2356
*SPEED		=  0.196312
*SLIT_SPEC	=  0, 0.500mm, 0.5, 0.000000
*SLIT_SPEC	=  1, 0.500mm, 0.5, 0.000000
*SLIT_SPEC	=  2, 0.500mm, 0.5, 0.000000
*KV		=  45
*MA		=  200
*LOW		=  0.000000
*HIGH		=  0.000000
*CTEMPER	=  0, 0.000000
*CTEMPER	=  1, 0.000000
*CTEMPER	=  2, 0.000000
*PAREX		=  0, 0.000000
*PAREX		=  1, 0.000000
*PAREX		=  2, 0.000000
*PAREX		=  3, 0.000000
*PAREX		=  4, 0.000000
*PAREX		=  5, 0.000000
*PAREX		=  6, 0.000000
*PAREX		=  7, 0.000000
*PAREX		=  8, 0.000000
*PAREX		=  9, 0.000000
*PAREX		=  10, 0.000000
*PAREX		=  11, 0.000000
*PAREX		=  12, 0.000000
*PAREX		=  13, 0.000000
*PAREX		=  14, 0.000000
*PAREX		=  15, 0.000000
*FULL_SCALE	=  440265
*INDEX		=  0, 0, 0
*COUNT		=  1001
5.9297, 5.94891, 11.0107, 10.0508
6.97755, 10.925, 11.9561, 14.9356
5.9252, 10.2961, 4.95759, 8.91364
8.96456, 9.93734, 13.9167, 14.0851
11.9776, 11.888, 14.014, 11.0692
9.91821, 12.9973, 5.99958, 14.9981
10.992, 10.945, 12.9465, 17.0311
20.9331, 13.9083, 6.97386, 7.94555
8.99318, 6.86282, 3.96253, 13.086
10.9439, 6.98683, 6.93093, 8.95651
4.97832, 13.9616, 9.06424, 12.8918
16.0952, 5.9455, 11.9652, 13.2945
10.9136, 10.9521, 8.11484, 11.9133
12.91, 7.32421, 7.99614, 11.958
19.9035, 7.97951, 10.9723, 10.9909
12.8839, 5.99097, 13.9804, 4.96564
9.89628, 13.9065, 11.905, 12.9353
8.00304, 9.95332, 14.929, 9.97029
7.03007, 21.0085, 13.8974, 13.3242
5.90696, 15.97, 11.9152, 13.9139
11.0093, 6.9599, 12.2943, 14.8936
12.9406, 12.9745, 8.95027, 7.94889
5.01623, 19.8747, 10.9601, 10.9678
10.8474, 9.89806, 13.9681, 18.8091
11.9093, 11.9117, 9.90186, 8.97701
12.9196, 7.01152, 13.9376, 14.8911
5.96446, 7.98475, 13.0973, 7.94037
6.95447, 10.9074, 16.8964, 9.88985
11.914, 12.9689, 8.93292, 11.8937
9.96227, 15.8945, 6.00441, 10.8996
11.8419, 13.9913, 10.0002, 11.0029
7.94881, 21.9028, 13.0624, 13.9609
20.9399, 11.9095, 15.9047, 16.3323
10.9684, 6.91677, 12.9572, 18.9681
11.9263, 16.0149, 13.9246, 16.9558
10.9727, 11.9754, 14.0512, 12.9169
6.96872, 6.90894, 9.91509, 12.0956
8.92689, 9.13563, 12.9699, 7.02105
14.9202, 9.89521, 7.9729, 12.9083
14.8966, 12.8914, 7.97792, 9.96825
10.2341, 12.1556, 17.0039, 16.987
10.0172, 13.8947, 12.8928, 11.8409
16.9065, 10.9651, 13.9755, 15.0084
16.3597, 14.9399, 14.9074, 7.00079
11.9695, 11.0298, 11.9523, 10.9464
15.9767, 8.93111, 13.9919, 20.8139
13.0335, 13.8997, 13.0364, 13.9263
10.9787, 11.9824, 4.96196, 18.8542
13.0011, 28.0473, 19.9804, 16.0244
13.0468, 6.00378, 22.9557, 13.0209
17.0435, 14.9579, 25.8707, 26.8612
20.922, 7.86731, 9.98336, 12.9615
14.9829, 12.9006, 14.928, 15.8774
12.9875, 23.8878, 15.9294, 18.9802
14.9717, 18.9391, 11.9252, 21.8649
15.9471, 10.9526, 18.9174, 19.0159
18.8798, 18.9497, 14.97, 18.8657
28.0088, 15.8394, 14.8919, 21.9483
21.9371, 16.8886, 14.945, 22.0529
24.8706, 14.9427, 18.0237, 22.8989
14.0024, 15.0931, 9.04129, 15.9296
13.8798, 22.9232, 17.875, 19.8682
10.1293, 29.8443, 14.9733, 26.2202
16.2597, 18.9297, 18.8417, 24.2672
13.9416, 18.9699, 16.9564, 18.0186
24.868, 27.1421, 19.8959, 17.9231
18.9287, 22.3098, 26.0524, 21.021
13.9214, 21.8908, 13.9173, 20.8142
16.9442, 27.8211, 13.8428, 19.1031
28.0001, 19.9819, 24.1266, 26.0016
32.9611, 18.994, 25.8186, 28.8195
26.0574, 29.0179, 28.7814, 27.1942
24.8867, 25.7843, 23.8821, 33.0713
23.9474, 25.8732, 31.9719, 32.9507
33.8342, 25.8803, 25.9279, 31.9651
19.0322, 30.9676, 28.9749, 34.8802
23.7994, 25.0082, 25.7978, 21.9941
21.0641, 26.8768, 25.9874, 30.9727
30.8835, 39.8089, 28.887, 37.0226
21.9132, 34.0134, 31.8965, 37.0865
28.8697, 43.6122, 28.9358, 28.8445
31.8914, 31.889, 24.977, 30.1342
32.0403, 35.8854, 43.8637, 36.8938
32.8917, 40.8858, 46.9537, 42.8072
43.8041, 38.8208, 37.8573, 43.0091
37.9341, 48.7338, 32.009, 40.0145
47.8583, 42.0201, 44.3632, 41.9192
42.961, 41.8832, 38.8013, 42.046
59.0454, 45.8673, 48.847, 52.9805
42.7211, 48.9235, 38.8071, 57.6292
49.6898, 56.0665, 40.8326, 54.8934
37.0171, 55.0866, 61.7816, 51.971
49.7586, 44.9031, 56.6153, 56.9104
47.8753, 73.1326, 73.6405, 55.6731
58.9037, 70.1373, 57.1316, 67.8773
66.58, 75.0459, 75.5913, 67.8745
71.7002, 74.7886, 57.0589, 67.2019
70.3255, 76.7337, 79.6215, 74.9408
84.9594, 85.7344, 99.7022, 91.889
89.1385, 74.9051, 82.7893, 92.0905
91.8759, 90.8244, 96.8666, 106.08
105.067, 115.651, 97.8063, 100.219
107.086, 104.69, 132.881, 131.438
117.105, 129.717, 139.701, 143.915
143.389, 135.186, 136.777, 140.614
130.684, 152.392, 161.61, 171.812
178.345, 167.334, 180.561, 214.587
218.308, 201.727, 202.358, 211.695
225.898, 254.677, 229.065, 255.41
262.534, 278.383, 285.077, 302.613
298.342, 309.582, 379.403, 411.592
437.437, 446.662, 468.671, 482.279
634.261, 845.505, 1467.25, 4253.03
7630.08, 5131.16, 1821.43, 1212.09
1012.63, 1098.16, 1703.58, 3048.2
3503.57, 2334.75, 1669.65, 2316.85
5497.75, 13480.5, 5623.31, 3071.36
4861.83, 10211.4, 18913.4, 37213.1
53369.3, 47980.2, 37276, 34233.4
35855.4, 22082, 14512.2, 22983.2
45034.5, 43401, 37794.2, 46492.3
56793.3, 69775.9, 67253.5, 59480.2
53007.1, 47844.4, 54898.2, 58573.3
54048.4, 57045.8, 72024.2, 70135
53130.6, 56825.2, 53135.6, 51059.8
59257.5, 62054, 59689.2, 51710.5
48896.6, 52683.2, 59933.5, 53449.9
35314, 26756.3, 24150.2, 24544
29492.9, 32866.6, 29606.7, 28355.3
21842.1, 17981.9, 22428.6, 23364.9
20837.2, 10634.6, 5320.85, 3909.98
2631.78, 1367.82, 1167.31, 977.745
941.225, 852.135, 768.068, 785.048
738.994, 671.008, 618.545, 555.63
517.911, 501.342, 491.063, 503.158
444.832, 451.105, 377.139, 382.337
399.4, 335.914, 349.311, 314.291
313.168, 285.875, 298.347, 240.453
278.089, 234.841, 269.547, 227.584
246.67, 228.474, 220.24, 186.634
201.273, 203.301, 202.173, 195.839
200.255, 165.893, 185.779, 173.706
138.311, 146.527, 136.662, 159.41
135.56, 148.687, 139.893, 145.974
138.446, 128.777, 124.531, 113.857
133.79, 151.713, 128.38, 100.776
114.766, 81.8647, 104.319, 121.181
107.531, 92.0846, 107.454, 85.6054
91.8599, 115.833, 111.642, 111.72
94.3976, 78.684, 80.2551, 78.6029
95.6936, 91.8379, 72.8386, 71.7717
72.3988, 64.8257, 82.4846, 63.6496
69.8728, 64.8124, 76.8451, 75.9353
76.2413, 59.913, 62.6838, 67.9016
67.8011, 55.7379, 57.781, 74.8744
55.1885, 65.818, 56.7334, 46.9894
60.761, 54.982, 52.6556, 64.0368
58.8917, 60.4151, 62.8721, 43.8295
48.7584, 46.9482, 45.8648, 41.8465
49.7525, 37.9083, 36.9788, 50.8191
51.9199, 49.9959, 53.8849, 55.8447
46.8366, 38.8298, 47.8885, 40.8162
35.9431, 34.9385, 35.9587, 42.81
41.8554, 35.8062, 48.7961, 35.7219
39.6014, 38.0571, 38.7984, 29.9469
33.1561, 40.8385, 42.9541, 30.9224
37.1885, 25.8346, 24.8467, 41.8015
30.0654, 26.8039, 25.0732, 35.0057
45.9096, 42.7732, 31.7964, 35.0924
32.0009, 30.8246, 21.8647, 30.9531
34.8061, 32.993, 18.9585, 31.873
39.9823, 28.8623, 41.8283, 20.8448
32.0198, 23.9707, 30.9341, 37.9263
21.8894, 25.8504, 20.0194, 24.0099
31.9381, 28.0617, 22.059, 14.8918
29.87, 14.95, 22.8685, 23.9853
26.9531, 23.9854, 24.0308, 18.9057
18.3337, 20.9901, 17.8606, 18.2857
22.0808, 16.9579, 22.0043, 22.0217
18.8648, 23.999, 24.0163, 21.0149
22.0579, 13.9106, 20.9819, 11.926
15.9468, 14.9663, 18.0907, 16.9712
27.905, 14.9299, 12.8578, 20.8269
21.9673, 18.8532, 25.382, 18.883
21.8315, 19.2613, 16.9207, 18.2401
15.9746, 12.9625, 14.917, 20.937
15.9115, 18.132, 12.8706, 19.9364
12.9099, 8.95989, 13.9754, 20.9739
16.9283, 15.9753, 15.2967, 19.9026
13.8926, 17.0133, 20.97, 23.8114
18.8938, 10.095, 16.9364, 8.96858
20.8895, 13.917, 15.0731, 11.0513
19.8948, 11.9094, 12.8912, 16.9531
9.93126, 15.8064, 10.8689, 14.9166
7.0704, 15.9212, 10.0612, 10.1952
15.9407, 8.95549, 14.8876, 12.2996
12.0005, 9.91354, 10.947, 18.0405
10.9281, 9.88261, 12.9492, 17.7987
12.9516, 14.9663, 8.95198, 14.9317
13.8506, 5.9023, 10.9296, 18.9521
12.973, 11.9231, 16.8496, 10.9277
8.28737, 14.9819, 4.93935, 13.945
16.0207, 9.96111, 20.9798, 7.98492
12.8512, 8.91272, 9.88351, 6.01336
14.0258, 12.9008, 15.0264, 11.0253
6.97924, 15.8599, 11.9289, 10.0018
7.93643, 10.0588, 12.1238, 10.9481
12.8929, 9.90257, 12.9788, 12.9878
4.93459, 14.8915, 14.2205, 10.2002
11.8977, 4.9503, 8.00862, 13.8814
12.0272, 7.1156, 7.98497, 8.90962
10.9776, 6.97798, 12.3011, 9.97066
15.0041, 4.03051, 6.9632, 7.96968
4.98549, 7.94377, 4.99065, 8.92104
3.99571, 10.9149, 4.94964, 8.96622
9.98624, 9.90991, 13.8661, 4.93068
11.2, 10.1635, 10.9496, 6.98409
11.9429, 7.96146, 7.003, 7.93484
6.91622, 3.95301, 6.95908, 11.9034
7.91405, 13.9152, 11.0599, 6.97688
13.0548, 10.9434, 7.95357, 8.88998
6.01361, 10.0101, 10.9543, 7.94257
5.99682, 4.9911, 8.9555, 6.92866
8.91321, 2.95918, 9.97832, 4.96292
10.9296, 7.9417, 4.02007, 5.94457
10.9851, 14.9635, 12.958, 7.94453
10.97, 3.00037, 8.99736, 8.96076
7.95719, 6.92218, 5.99478, 4.98971
9.98643, 10.0262, 7.01052, 3.9983
8.01808, 7.95201, 4.0529, 7.04862
6.05274, 4.95502, 6.91979, 7.97698
4.94233, 4.02926, 12.9905, 13.1119
9.9452, 10.9986, 5.94663, 6.98812
5.91032, 9.9179, 6.99002, 9.97505
8.95269, 12.9467, 9.91014, 8.95811
6.0281, 4.97339, 5.02707, 13.9484
1.01387, 6.926, 4.00972, 4.91853
7.93019, 7.86956, 5.15228, 4.97125
4.97882, 3.94305, 6.01685, 5.97465
6.00499, 9.99558, 5.94272, 2.96478
11.9347, 1.97885, 8.92259, 5.99376
5.97645, 7.96821, 9.01944, 5.95531
11.3904, 3.04319, 8.94275, 2.94253
8.90419, 6.01219, 6.95039, 4.98732
4.97794, 6.99922, 4.98088, 5.98036
5.94219, 5.92918, 4.99297, 4.99973
19.9189, 18.9663, 9.9846, 8.90159
5.03536, 5.04233, 6.93347, 14.8491
3.96483, 6.93193, 5.93558, 3.94935
2.95047, 11.086, 3.99185, 7.01199
3.95321
*END

*EOF
